study_words,text,trials.thisRepN,trials.thisTrialN,trials.thisN,trials.thisIndex,trials_2.thisRepN,trials_2.thisTrialN,trials_2.thisN,trials_2.thisIndex,text.started,slider.started,slider.response,slider.rt,text_2.started,textbox.started,text_3.started,mouse.started,textbox.text,mouse.x,mouse.y,mouse.leftButton,mouse.midButton,mouse.rightButton,mouse.time,mouse.clicked_name,participant,session,date,expName,psychopyVersion,frameRate,
vase ,,0,0,0,0,,,,,22.004004599999462,22.004004599999462,1.0277777777777777,2.145737500002724,,,,,,,,,,,,,3sh,001,2023-09-29_16h13.30.035,wordpriming,2023.1.3,60.24223402304572,
tube,,0,1,1,5,,,,,24.150681299997814,24.150681299997814,1,1.3943274000012025,,,,,,,,,,,,,3sh,001,2023-09-29_16h13.30.035,wordpriming,2023.1.3,60.24223402304572,
needle ,,0,2,2,11,,,,,25.56711870000072,25.56711870000072,1,1.24311569999918,,,,,,,,,,,,,3sh,001,2023-09-29_16h13.30.035,wordpriming,2023.1.3,60.24223402304572,
clock,,0,3,3,14,,,,,26.833547199999884,26.833547199999884,1,1.0122608999990916,,,,,,,,,,,,,3sh,001,2023-09-29_16h13.30.035,wordpriming,2023.1.3,60.24223402304572,
piano,,0,4,4,4,,,,,27.86631649999981,27.86631649999981,1,0.8939112999978533,,,,,,,,,,,,,3sh,001,2023-09-29_16h13.30.035,wordpriming,2023.1.3,60.24223402304572,
chair ,,0,5,5,13,,,,,28.782838200000697,28.782838200000697,1,0.7770414000005985,,,,,,,,,,,,,3sh,001,2023-09-29_16h13.30.035,wordpriming,2023.1.3,60.24223402304572,
book,,0,6,6,2,,,,,29.58226139999897,29.58226139999897,1,0.7617133000021568,,,,,,,,,,,,,3sh,001,2023-09-29_16h13.30.035,wordpriming,2023.1.3,60.24223402304572,
tata,,0,7,7,6,,,,,30.36558999999761,30.36558999999761,1,1.4449161000011372,,,,,,,,,,,,,3sh,001,2023-09-29_16h13.30.035,wordpriming,2023.1.3,60.24223402304572,
phone ,,0,8,8,9,,,,,31.831367499999033,31.831367499999033,1,0.8787771999996039,,,,,,,,,,,,,3sh,001,2023-09-29_16h13.30.035,wordpriming,2023.1.3,60.24223402304572,
cushion,,0,9,9,3,,,,,32.7313957999977,32.7313957999977,1,0.8784123000004911,,,,,,,,,,,,,3sh,001,2023-09-29_16h13.30.035,wordpriming,2023.1.3,60.24223402304572,
mouse,,0,10,10,7,,,,,33.63104209999801,33.63104209999801,1,1.3627503000025172,,,,,,,,,,,,,3sh,001,2023-09-29_16h13.30.035,wordpriming,2023.1.3,60.24223402304572,
tiger,,0,11,11,1,,,,,35.014387699997314,35.014387699997314,1,0.7930846000017482,,,,,,,,,,,,,3sh,001,2023-09-29_16h13.30.035,wordpriming,2023.1.3,60.24223402304572,
queen,,0,12,12,8,,,,,35.830575600000884,35.830575600000884,1,0.743353499998193,,,,,,,,,,,,,3sh,001,2023-09-29_16h13.30.035,wordpriming,2023.1.3,60.24223402304572,
table ,,0,13,13,12,,,,,36.59662860000026,36.59662860000026,1,0.7598206000002392,,,,,,,,,,,,,3sh,001,2023-09-29_16h13.30.035,wordpriming,2023.1.3,60.24223402304572,
marble ,,0,14,14,10,,,,,37.38029439999809,37.38029439999809,1,0.795380200001091,,,,,,,,,,,,,3sh,001,2023-09-29_16h13.30.035,wordpriming,2023.1.3,60.24223402304572,
,_a_e,,,,,0,0,0,0,,,,,38.196950199999264,38.196950199999264,38.196950199999264,0.008174400001735194,tape,[-0.022222222222222223],[-0.2847222222222222],[1],[0],[0],[9.388394800000242],['text_3'],3sh,001,2023-09-29_16h13.30.035,wordpriming,2023.1.3,60.24223402304572,
,_oo_,,,,,0,1,1,2,,,,,47.57776139999987,47.57776139999987,47.57776139999987,0.0019804000003205147,boot,[-0.022222222222222223],[-0.2847222222222222],[1],[0],[0],[3.2770945000011125],['text_3'],3sh,001,2023-09-29_16h13.30.035,wordpriming,2023.1.3,60.24223402304572,
,c_s_i_n,,,,,0,2,2,3,,,,,50.85989829999744,50.85989829999744,50.85989829999744,0.0033871999985422008,cushion,[-0.022222222222222223],[-0.2847222222222222],[1],[0],[0],[4.210085999999137],['text_3'],3sh,001,2023-09-29_16h13.30.035,wordpriming,2023.1.3,60.24223402304572,
,t_t_,,,,,0,3,3,6,,,,,55.07500599999912,55.07500599999912,55.07500599999912,0.0021782999974675477,tata,[-0.02361111111111111],[-0.30833333333333335],[1],[0],[0],[2.8145196000004944],['text_3'],3sh,001,2023-09-29_16h13.30.035,wordpriming,2023.1.3,60.24223402304572,
,t_b_,,,,,0,4,4,5,,,,,57.9063920999979,57.9063920999979,57.9063920999979,0.0030585999993490987,tube,[],[],[],[],[],[],[],3sh,001,2023-09-29_16h13.30.035,wordpriming,2023.1.3,60.24223402304572,
,p_o_e,,,,,0,5,5,9,,,,,67.90457260000039,67.90457260000039,67.90457260000039,0.013185499999963213,,[],[],[],[],[],[],[],3sh,001,2023-09-29_16h13.30.035,wordpriming,2023.1.3,60.24223402304572,
,q__en,,,,,0,6,6,8,,,,,77.9013629000001,77.9013629000001,77.9013629000001,0.010052300000097603,queen,[-0.02361111111111111],[-0.30833333333333335],[1],[0],[0],[4.699752399999852],['text_3'],3sh,001,2023-09-29_16h13.30.035,wordpriming,2023.1.3,60.24223402304572,
,p_st_y,,,,,0,7,7,10,,,,,82.65061530000094,82.65061530000094,82.65061530000094,0.019731799999135546,,[-0.02361111111111111],[-0.30833333333333335],[1],[0],[0],[9.454200799998944],['text_3'],3sh,001,2023-09-29_16h13.30.035,wordpriming,2023.1.3,60.24223402304572,
,_o_s_,,,,,0,8,8,7,,,,,92.11412679999921,92.11412679999921,92.11412679999921,0.010339099997509038,,[0.0],[-0.275],[1],[0],[0],[8.233004299996537],['text_3'],3sh,001,2023-09-29_16h13.30.035,wordpriming,2023.1.3,60.24223402304572,
,c_rt__ns,,,,,0,9,9,13,,,,,100.36209799999779,100.36209799999779,100.36209799999779,0.011160099998960504,cartoons,"[-0.025, 0.013888888888888888]","[-0.32916666666666666, -0.2986111111111111]","[1, 1]","[0, 0]","[0, 0]","[5.201030399999581, 6.451784400000179]",['text_3'],3sh,001,2023-09-29_16h13.30.035,wordpriming,2023.1.3,60.24223402304572,
,_ia__,,,,,0,10,10,4,,,,,106.80854289999843,106.80854289999843,106.80854289999843,0.005790000002889428,piano,[-0.03194444444444444],[-0.30833333333333335],[1],[0],[0],[6.858175100001972],['text_3'],3sh,001,2023-09-29_16h13.30.035,wordpriming,2023.1.3,60.24223402304572,
,n_n_,,,,,0,11,11,14,,,,,113.69077330000073,113.69077330000073,113.69077330000073,0.010540899998886744,nine,"[0.002777777777777778, -0.025]","[0.009722222222222222, -0.31805555555555554]","[1, 1]","[0, 0]","[0, 0]","[1.2683383000003232, 5.400391600000148]",['text_3'],3sh,001,2023-09-29_16h13.30.035,wordpriming,2023.1.3,60.24223402304572,
,t_g_r,,,,,0,12,12,1,,,,,119.10594739999942,119.10594739999942,119.10594739999942,0.011634599999524653,tiger,[-0.025],[-0.31805555555555554],[1],[0],[0],[3.59747370000332],['text_3'],3sh,001,2023-09-29_16h13.30.035,wordpriming,2023.1.3,60.24223402304572,
,_r__k,,,,,0,13,13,12,,,,,122.70447169999898,122.70447169999898,122.70447169999898,0.006391999999323161,,[0.006944444444444444],[-0.325],[1],[0],[0],[9.737396500000614],['text_3'],3sh,001,2023-09-29_16h13.30.035,wordpriming,2023.1.3,60.24223402304572,
,s__p,,,,,0,14,14,11,,,,,132.46829679999792,132.46829679999792,132.46829679999792,0.012230000000272412,soap,[-0.002777777777777778],[-0.30277777777777776],[1],[0],[0],[5.967671800000971],['text_3'],3sh,001,2023-09-29_16h13.30.035,wordpriming,2023.1.3,60.24223402304572,
